Folder: Respository-for-Accelerating-the-development-of-thin-film-photovoltaic-technologies/data

Note: data/_x_axis_pl.txt
891.814	893.412	895.01	896.609	898.207	899.807	901.406	903.005	904.605	906.205	907.805	909.406	911.006	912.607	914.209	915.81	917.412	919.013	920.615	922.218	923.82	925.423	927.026	928.629	930.233	931.836	933.44	935.044	936.649	938.253	939.858	941.463	943.069	944.674	946.28	947.886	949.492	951.099	952.705	954.312	955.92	957.527	959.135	960.742	962.351	963.959	965.567	967.176	968.785	970.395	972.004	973.614	975.224	976.834	978.444	980.055	981.666	983.277	984.888	986.5	988.112	989.724	991.336	992.949	994.561	996.174	997.788	999.401	1001.01	1002.63	1004.24	1005.86	1007.47	1009.09	1010.7	1012.32	1013.93	1015.55	1017.16	1018.78	1020.4	1022.01	1023.63	1025.25	1026.87	1028.48	1030.1	1031.72	1033.34	1034.96	1036.57	1038.19	1039.81	1041.43	1043.05	1044.67	1046.29	1047.91	1049.53	1051.15	1052.78	1054.4	1056.02	1057.64	1059.26	1060.88	1062.51	1064.13	1065.75	1067.38	1069	1070.62	1072.25	1073.87	1075.5	1077.12	1078.75	1080.37	1082	1083.62	1085.25	1086.87	1088.5	1090.13	1091.75	1093.38	1095.01	1096.64	1098.26	1099.89	1101.52	1103.15	1104.78	1106.4	1108.03	1109.66	1111.29	1112.92	1114.55	1116.18	1117.81	1119.44	1121.08	1122.71	1124.34	1125.97	1127.6	1129.23	1130.87	1132.5	1134.13	1135.76	1137.4	1139.03	1140.67	1142.3	1143.93	1145.57	1147.2	1148.84	1150.47	1152.11	1153.74	1155.38	1157.02	1158.65	1160.29	1161.93	1163.56	1165.2	1166.84	1168.48	1170.11	1171.75	1173.39	1175.03	1176.67	1178.31	1179.95	1181.59	1183.23	1184.87	1186.51	1188.15	1189.79	1191.43	1193.07	1194.71	1196.36	1198	1199.64	1201.28	1202.93	1204.57	1206.21	1207.86	1209.5	1211.14	1212.79	1214.43	1216.08	1217.72	1219.37	1221.01	1222.66	1224.3	1225.95	1227.6	1229.24	1230.89	1232.54	1234.18	1235.83	1237.48	1239.13	1240.78	1242.42	1244.07	1245.72	1247.37	1249.02	1250.67	1252.32	1253.97	1255.62	1257.27	1258.92	1260.57	1262.22	1263.88	1265.53	1267.18	1268.83	1270.48	1272.14	1273.79	1275.44	1277.1	1278.75	1280.4	1282.06	1283.71	1285.37	1287.02	1288.68	1290.33	1291.99	1293.65	1295.3	1296.96	1298.61	1300.27	1301.93	1303.59	1305.24	1306.9	1308.56	1310.22	1311.88	1313.53	1315.19	1316.85	1318.51	1320.17	1321.83	1323.49	1325.15	1326.81	1328.47	1330.13	1331.8	1333.46	1335.12	1336.78	1338.44	1340.11	1341.77	1343.43	1345.1	1346.76	1348.42	1350.09	1351.75	1353.42	1355.08	1356.75	1358.41	1360.08	1361.74	1363.41	1365.07	1366.74	1368.41	1370.07	1371.74	1373.41	1375.08	1376.74	1378.41	1380.08	1381.75	1383.42	1385.09	1386.76	1388.42	1390.09	1391.76	1393.43	1395.11	1396.78	1398.45	1400.12	1401.79	1403.46	1405.13	1406.81	1408.48	1410.15	1411.82	1413.5	1415.17	1416.84	1418.52	1420.19	1421.87	1423.54	1425.21	1426.89	1428.57	1430.24	1431.92	1433.59	1435.27	1436.95	1438.62	1440.3	1441.98	1443.65	1445.33	1447.01	1448.69	1450.37	1452.04	1453.72	1455.4	1457.08	1458.76	1460.44	1462.12	1463.8	1465.48	1467.16	1468.84	1470.53	1472.21	1473.89	1475.57	1477.25	1478.94	1480.62	1482.3	1483.98	1485.67	1487.35	1489.04	1490.72	1492.4	1494.09	1495.77	1497.46	1499.14	1500.83	1502.52	1504.2	1505.89	1507.58	1509.26	1510.95	1512.64	1514.32	1516.0

Note: data/y_cis.txt
367.10351
369.46149
372.80215
373.27368
372.5287
371.64559
375.71993
375.08557
378.23981
376.60359
383.95807
372.46516
380.47302
377.45575
382.71575
386.42366
388.9637
384.73529
383.7499
382.04692
391.40783
345.33446
371.04073
381.99497
329.25609
371.85168
390.95607
384.3069
389.24763
342.23442
381.58989
302.95455
378.59715
368.47996
385.24554
396.37503
387.54031
397.33366
401.6825
399.42807
375.76734
368.40317
374.88498
375.42169
377.28776
376.40678
384.93909
377.83753
374.78769
384.43076
373.21737
370.67884
370.42409
329.46929
373.92849
364.35803
372.61675
384.08653
383.50256
386.73364
376.19854
353.93629
354.04358
370326
372.52639
378.54097
378.58256
358.17613
373.03728
311.91416
375.95922
383.75999
362.22274
370.11123
383.73305
386.27569
360.36421
377.27481
392.32244
398.84934
372.82982
373.4146
377.42286
378.09932
378.85884
372.67831
381.92535
376.26732
372.93201
380.17946
376.68089
376.81369
355.96453
382.84273
356.69439
376.9867
378.14857
381.44796
370.04012
349.80239
384.50503
350.27542
379.19379
363.29489
361.23982
321.56255
263.43365
236.01261
345.10744
326.75636
261.8874
339.72849
374.64901
355.20558
389.81385
389.7564
351.86474
392.19614
382.58782
374.34977
378.9377
379.40662
378.92482
380.92457
376.80363
379.82449
371.46421
372.91054
379.00842
378.31328
384.56186
387.73249
367.30373
380.51046
299.6507
329.85566
386.82752
376.38899
386.51214
389.29629
385.09231
350.66161
374.24893
381.11012
303.50718
379.77577
372.41503
377.1242
385.11908
394.98867
373.07188
386.95115
388.6737
386.47012
397.02891
387.36603
392.34311
384.81984
402.48076
381.97441
364.30063
385.61259
382.74788
382.43679
383.45861
385.42259
382.58163
382.96021
387.48355
380.42077
372.31909
387.73672
391.72466
376.57039
377.45472
381.74726
344.22936
390.91487
380.13406
384.65251
383.22314
376.29595
384.3097
384.07364
378.25398
384.66392
377.25434
384.06133
395.89056
397.16464
349.47542
382.15272
390.37611
394.45066
380.25098
387.01114
397.10307
381.9293
384.47668
457.12747
449.44942
447.57387
443.62275
446.15423
442.9565
439.45046
436.26358
439.48784
437.77875
439.75542
436.98087
440.8157
440.97337
426.91061
445.57492
428.16514
442.57548
441.72387
443.9506
444.24378
445.98808
447.10716
447.38886
450.3567
448.6249
445.27603
445.25923
418.27467
342.61953
341.99975
345.50577
340.90535
323.63667
309.98381
292.04438
287.95162
274.69076
241.19395
456.01316
449.63387
450.16825
449.44286
444.52147
437.35501
445.52733
438.69483
444.22795
434.64055
435.23097
434.80667
430.73539
442.56425
439.28851
437.45878
439.94161
436.93102
422.10966
441.76918
441.50837
427.85712
449.73517
446.2655
449.58777
432.30713
443.09715
446.66969
441.33481
332.62335
340.3586
348.36036
328.02159
322.46466
324.33723
316.88626
284.84684
293.61531
215.70144
452.53121
453.57286
450.03259
446.96793
446.81364
441.4478
442.88127
435.36434
441.87251
434.98864
442.09884
435.65395
440.38223
440.44596
443.12849
441.35694
435.11207
440.82314
447.43352
441.46118
441.50907
445.07853
442.21946
444.84829
451.72381
452.44

Note: data/y_czgse.txt
1.0155
1.0315
0.91489
0.86577
0.83117
0.80519
0.78846
0.80392
0.77707
0.78065
0.77215
0.74684
0.72956
0.73585
1.00758
1.0155
0.96296
0.94161
0.8129
0.80645
0.83444
0.8
0.77707
0.79085
0.77564
0.78205
0.74214
0.74051
1.06061
1.02273
1.0315
0.97744
0.88276
0.83444
0.80769
0.81046
0.7987
0.81169
0.79221
0.79221
0.77215
0.78205
1.05385
1.04651
1.0303
1.0
1.0
0.9021
0.86486
0.82895
0.80645
0.82119
0.80519
0.78846
0.80392
0.79085
1.08527
1.03759
1.05469
1.0303
1.03077
0.95556
0.96269
0.87075
0.83007
0.81699
0.80128
0.82237
0.8
0.7987
1.11024
1.09449
1.10317
1.0625
1.06299
1.02326
1.06349
1.02326
0.91489
0.875
0.84667
0.81579
0.82895
0.82781
1.12598
1.1
1.11811
1.11111
1.0873
1.03906
1.04724
1.0
1.02344
0.91429
0.85906
0.87755
0.84768
0.85811
1.17886
1.144
1.16393
1.12195
1.112
1.08871
1.088
1.056
1.04688
1.01527
1.00775
1.00769
0.84768
0.89041
1.19841
1.15873
1.128
1.17647
1.15702
1.13115
1.10569
1.08065
1.05556
1.0315
1.03125
1.01538
1.03125
1.04
1.19841
1.19048
1.16935
1.18548
1.18333
1.12195
1.12397
1.13223
1.088
1.10744
1.08871
1.04651
1.072
1.04839
1.2605
1.22764
1.21311
1.19008
1.18182
1.16667
1.17647
1.14286
1.12295
1.13821
1.09836
1.096
1.04724
1.08871
1.27434
1.2605
1.22951
1.17073
1.18033
1.20661
1.18333
1.19658
1.17355
1.1405
1.13115
1.13115
1.1
1.10656
1.35185
1.32727
1.23932
1.25833
1.2521
1.20661
1.225
1.17213
1.15966
1.14876
1.15126
1.15702
1.09677
1.12295
1.38679
1.29464
1.36111
1.30631
1.26957
1.24576
1.23529
1.20339
1.23077
1.19167
1.18333
1.19492
1.16102
1.13821

File: _xrf.txt
Sample	X	Y	d1 [Âµm]	Cu 1 [%]	In 1 [%]	Se 1 [%]	Mo 2 [Âµm]	Fe 3 [%]	Cr 3 [%]
1.0 57.17 33.9 1.78 21.8 29.6 48.6 0.301 81.6 18.4
1.0 93.078 33.9 1.99 21.7 29.7 48.6 0.301 81.5 18.5
1.0 128.986 33.9 2.33 22.0 29.3 48.8 0.301 81.6 18.4
1.0 164.892 33.9 2.39 22.3 29.2 48.5 0.306 81.5 18.5
1.0 81.108 39.964 1.9 21.8 29.7 48.5 0.298 81.6 18.4
1.0 117.016 39.964 2.32 21.8 30.0 48.2 0.305 81.5 18.5
1.0 152.922 39.964 2.41 22.1 29.3 48.5 0.293 81.8 18.2
1.0 69.14 46.028 1.87 21.7 29.4 48.9 0.296 81.6 18.4
1.0 105.046 46.028 2.17 22.0 29.4 48.6 0.302 81.6 18.4
1.0 140.954 46.028 2.39 22.2 29.4 48.4 0.299 81.6 18.4
1.0 57.17 52.092 1.8 21.4 29.8 48.8 0.292 81.6 18.4
1.0 96.07 52.092 1.98 21.9 29.2 48.8 0.287 81.6 18.4
1.0 131.976 52.092 2.36 22.0 29.5 48.4 0.306 81.6 18.4
1.0 167.886 52.092 2.41 22.1 29.5 48.4 0.294 81.6 18.4
1.0 84.1 58.158 1.97 21.5 30.1 48.4 0.305 81.7 18.3
1.0 120.01 58.158 2.34 21.8 29.9 48.3 0.306 81.7 18.3
1.0 155.916 58.158 2.4 22.1 29.3 48.5 0.297 81.6 18.4
2.0 66.882 89.906 2.28 19.5 30.8 49.7 0.297 81.7 18.3
2.0 102.648 89.906 1.89 19.9 29.8 50.4 0.29 81.6 18.4
2.0 138.418 89.906 1.57 20.3 28.7 51.1 0.257 81.6 18.4
2.0 57.938 96.11 2.33 19.4 31.1 49.5 0.305 81.7 18.3
2.0 93.708 96.11 1.98 19.7 30.3 50.0 0.293 81.6 18.4
2.0 129.476 96.11 1.75 19.8 30.2 50.0 0.278 81.7 18.3
2.0 165.242 96.11 1.25 22.0 26.7 51.3 0.208 81.7 18.3
2.0 84.766 102.314 2.1 19.6 30.8 49.6 0.296 81.7 18.3
2.0 120.534 102.314 1.82 20.0 29.9 50.1 0.281 81.7 18.3
2.0 156.3 102.314 1.39 21.5 27.3 51.1 0.213 81.8 18.2
2.0 75.824 108.516 2.2 19.4 30.9 49.7 0.294 81.6 18.4
2.0 111.59 108.516 1.89 19.7 30.2 50.1 0.289 81.7 18.3
2.0 153.32 108.516 1.43 21.2 27.7 51.1 0.223 81.7 18.3
2.0 72.84 114.72 2.24 19.5 30.6 49.9 0.299 81.7 18.3
2.0 108.61 114.72 1.91 19.8 30.5 49.7 0.294 81.6 18.4
2.0 144.378 114.72 1.55 20.5 28.5 50.9 0.249 81.7 18.3
3.0 72.902 161.496 1.78 19.4 30.3 50.4 0.29 81.6 18.4
3.0 108.784 161.496 2.03 19.4 30.5 50.1 0.296 81.6 18.4
3.0 144.666 161.496 2.35 19.5 30.9 49.6 0.313 81.5 18.5
3.0 66.922 167.542 1.83 19.4 30.6 50.1 0.294 81.7 18.3
3.0 102.804 167.542 1.97 19.4 30.3 50.3 0.296 81.6 18.4
3.0 138.686 167.542 2.36 19.6 31.0 49.5 0.316 81.7 18.3
3.0 60.942 173.588 1.68 19.3 30.3 50.3 0.286 81.6 18.4
3.0 96.824 173.588 1.94 19.4 30.5 50.1 0.289 81.7 18.3
3.0 132.706 173.588 2.33 19.3 30.8 49.9 0.311 81.6 18.4
3.0 168.588 173.588 2.36 19.4 30.6 50.0 0.306 81.7 18.3
3.0 90.844 179.634 1.89 19.3 30.1 50.5 0.292 81.5 18.5
3.0 126.726 179.634 2.31 19.5 30.7 49.9 0.306 81.7 18.3
3.0 162.608 179.634 2.36 19.5 30.6 49.9 0.301 81.6 18.4
3.0 84.864 185.68 1.73 19.7 29.3 51.0 0.263 81.5 18.5
3.0 120.746 185.68 2.22 19.4 30.6 50.1 0.297 81.6 18.4
3.0 156.628 185.68 2.33 19.4 30.6 50.0 0.308 81.6 18.4
4.0 63.798 119.668 2.06 19.4 30.7 49.9 0.326 81.8 18.2
4.0 99.93 119.668 1.98 19.4 30.6 49.9 0.33 81.8 18.2
4.0 136.06 119.668 1.86 19.3 31.1 49.6 0.321 81.7 18.3
4.0 54.764 125.758 2.03 19.4 30.6 50.0 0.322 81.7 18.3
4.0 90.896 125.758 2.01 19.4 30.6 50.0 0.326 81.7 18.3
4.0 127.028 125.758 1.89 19.3 31.1 49.6 0.328 81.7 18.3
4.0 45.732 131.842 2.3 17.7 35.5 46.8 0.393 80.5 19.5
4.0 81.864 131.842 2.05 19.5 30.7 49.8 0.328 81.7 18.3
4.0 117.994 131.842 1.92 19.5 30.6 49.9 0.327 81.7 18.3
4.0 154.126 131.842 1.78 19.8 30.7 49.5 0.31 81.6 18.4
4.0 72.83 137.93 2.08 19.4 30.9 49.7 0.335 81.8 18.2
4.0 108.964 137.93 1.96 19.5 30.8 49.7 0.321 81.7 18.3
4.0 145.094 137.93 1.83 19.6 30.9 49.5 0.328 81.7 18.3
4.0 63.798 144.018 2.09 19.3 30.5 50.1 0.327 81.8 18.2
4.0 99.93 144.018 2.01 19.5 30.7 49.8 0.327 81.8 18.2
4.0 136.062 144.018 1.87 19.3 31.3 49.4 0.331 81.6 18.4
6.0 49.518 54.658 1.28 20.9 27.8 51.3 0.264 81.6 18.4
6.0 85.286 54.658 1.71 20.1 29.1 50.8 0.288 81.7 18.3
6.0 121.052 54.658 1.87 20.4 29.1 50.5 0.283 81.5 18.5
6.0 156.82 54.658 2.38 19.8 30.4 49.8 0.309 81.7 18.3
6.0 46.538 60.724 1.35 20.3 29.3 50.4 0.286 81.6 18.4
6.0 82.304 60.724 1.67 20.5 28.2 51.3 0.274 81.7 18.3
6.0 118.072 60.724 1.91 20.1 29.5 50.4 0.29 81.6 18.4
6.0 153.842 60.724 2.25 20.2 29.6 50.2 0.287 81.7 18.3
6.0 43.556 66.792 1.5 18.2 36.3 45.6 0.389 80.3 19.7
6.0 79.324 66.792 1.6 20.4 28.1 51.5 0.274 81.6 18.4
6.0 115.092 66.792 1.88 20.1 29.4 50.5 0.281 81.6 18.4
6.0 150.86 66.792 2.35 19.9 30.2 49.9 0.305 81.7 18.3
6.0 40.576 72.858 1.71 16.8 39.8 43.5 0.496 79.8 20.2
6.0 76.344 72.858 1.58 20.3 28.0 51.7 0.271 81.7 18.3
6.0 112.114 72.858 1.81 20.4 28.7 50.9 0.261 81.5 18.5
6.0 147.878 72.858 2.31 19.9 30.2 49.8 0.298 81.6 18.4
6.0 183.648 72.858 2.43 19.7 30.7 49.6 0.307 81.7 18.3
6.0 73.362 78.924 1.54 20.4 28.0 51.6 0.265 81.7 18.3
6.0 109.13 78.924 1.84 20.1 29.1 50.8 0.277 81.5 18.5
6.0 144.898 78.924 2.34 19.6 30.6 49.7 0.304 81.7 18.3
6.0 180.666 78.924 2.43 19.6 30.6 49.8 0.311 81.8 18.2
7.0 73.682 145.278 1.92 22.2 28.1 49.8 0.303 81.5 18.5
7.0 109.402 145.278 2.53 21.7 29.2 49.1 0.329 81.5 18.5
7.0 145.122 145.278 2.87 21.2 30.2 48.6 0.346 81.6 18.4
7.0 55.824 151.236 1.72 22.2 28.2 49.5 0.302 81.6 18.4
7.0 91.542 151.236 2.36 21.9 28.8 49.3 0.321 81.7 18.3
7.0 127.262 151.236 2.74 21.3 30.1 48.6 0.348 81.4 18.6
7.0 162.984 151.236 2.92 21.1 30.3 48.6 0.353 81.6 18.4
7.0 73.684 157.192 1.94 22.0 28.1 49.9 0.308 81.6 18.4
7.0 112.378 157.192 2.61 21.7 29.3 49.0 0.328 81.6 18.4
7.0 148.1 157.192 2.78 21.6 29.4 49.0 0.33 81.5 18.5
7.0 58.802 163.152 1.77 22.1 27.9 50.0 0.303 81.6 18.4
7.0 94.52 163.152 2.39 22.0 28.6 49.4 0.316 81.6 18.4
7.0 133.216 163.152 2.79 21.6 29.5 48.9 0.343 81.6 18.4
7.0 43.916 169.108 1.45 21.7 27.7 50.6 0.306 81.5 18.5
7.0 79.636 169.108 2.06 22.0 28.2 49.8 0.316 81.6 18.4
7.0 115.356 169.108 2.6 21.7 29.7 48.6 0.332 81.4 18.6
7.0 151.074 169.108 2.85 21.2 29.9 48.9 0.346 81.6 18.4
8.0 90.634 86.032 1.68 24.5 27.6 47.8 0.3 81.6 18.4
8.0 126.562 86.032 1.91 24.3 28.4 47.4 0.322 81.6 18.4
8.0 162.492 86.032 1.84 24.0 27.4 48.6 0.319 81.3 18.7
8.0 78.656 92.104 -1.0 -1.0 -1.0 -1.0 -1.0 -1.0 -1.0
8.0 114.586 92.104 1.79 24.4 27.9 47.6 0.314 81.6 18.4
8.0 150.516 92.104 1.99 24.0 28.1 47.8 0.323 81.6 18.4
8.0 186.448 92.104 2.46 23.3 29.3 47.4 0.34 81.6 18.4
8.0 102.61 98.178 1.64 24.6 27.2 48.2 0.31 81.6 18.4
8.0 138.54 98.178 1.87 24.0 28.0 48.0 0.316 81.5 18.5
8.0 174.47 98.178 2.4 23.5 29.3 47.1 0.345 81.5 18.5
8.0 90.632 104.252 1.74 24.3 28.0 47.7 0.313 81.7 18.3
8.0 126.562 104.252 1.9 24.1 28.4 47.5 0.32 81.6 18.4
8.0 162.494 104.252 1.87 24.1 27.4 48.5 0.313 81.5 18.5
8.0 78.656 110.324 1.55 24.8 26.1 49.0 0.278 81.7 18.3
8.0 114.588 110.324 1.94 23.9 28.8 47.2 0.324 81.6 18.4
8.0 150.516 110.324 2.0 23.9 28.3 47.8 0.316 81.5 18.5
8.0 186.446 110.324 2.46 23.5 29.1 47.4 0.332 81.6 18.4
9.0 106.386 147.286 1.45 23.4 27.6 49.0 0.319 81.5 18.5
9.0 142.36 147.286 1.76 23.1 28.2 48.8 0.328 81.4 18.6
9.0 178.332 147.286 2.46 22.6 29.9 47.5 0.337 81.6 18.4
9.0 94.394 153.318 1.77 23.4 28.5 48.1 0.307 81.7 18.3
9.0 130.368 153.318 -1.0 -1.0 -1.0 -1.0 -1.0 -1.0 -1.0
9.0 166.34 153.318 1.92 23.2 27.8 49.0 0.324 81.5 18.5
9.0 82.406 159.346 1.49 23.8 27.6 48.6 0.299 81.6 18.4
9.0 118.376 159.346 1.94 22.9 29.1 48.0 0.325 81.6 18.4
9.0 154.35 159.346 2.32 22.5 29.5 48.0 0.325 81.6 18.4
9.0 190.324 159.346 2.47 22.8 29.7 47.5 0.339 81.7 18.3
9.0 106.386 165.376 1.51 23.3 27.8 48.9 0.321 81.5 18.5
9.0 142.358 165.376 1.75 22.8 28.6 48.6 0.339 81.3 18.7
9.0 178.332 165.376 1.99 22.9 28.9 48.2 0.334 81.5 18.5
9.0 94.396 171.408 1.78 23.4 28.1 48.5 0.306 81.7 18.3
9.0 130.368 171.408 -1.0 -1.0 -1.0 -1.0 -1.0 -1.0 -1.0
9.0 166.34 171.408 1.93 23.1 28.0 48.9 0.325 81.5 18.5
10.0 79.362 29.83 1.63 20.1 32.5 47.4 0.337 81.4 18.6
10.0 115.474 29.83 1.92 19.7 33.1 47.1 0.359 81.3 18.7
10.0 151.58 29.83 2.24 19.5 33.9 46.5 0.387 81.2 18.8
10.0 187.69 29.83 2.37 19.0 35.8 45.2 0.409 80.8 19.2
10.0 100.426 35.966 1.82 19.9 32.4 47.7 0.345 81.5 18.5
10.0 136.538 35.966 2.07 19.9 32.7 47.4 0.365 81.5 18.5
10.0 172.644 35.966 2.35 19.3 35.2 45.6 0.396 80.9 19.1
10.0 85.38 42.098 1.68 20.3 32.3 47.4 0.337 81.5 18.5
10.0 121.49 42.098 1.95 20.1 32.7 47.2 0.367 81.4 18.6
10.0 157.598 42.098 2.28 19.5 33.7 46.9 0.388 81.1 18.9
10.0 193.708 42.098 2.33 19.2 35.0 45.8 0.392 81.0 19.0
10.0 106.446 48.234 1.86 20.0 33.0 47.0 0.347 81.3 18.7
10.0 142.554 48.234 2.21 19.6 33.8 46.6 0.378 81.2 18.8
10.0 178.662 48.234 2.35 19.1 35.2 45.6 0.397 80.9 19.1
10.0 91.398 54.368 1.76 20.2 32.5 47.3 0.342 81.5 18.5
10.0 127.51 54.368 1.98 20.2 32.5 47.3 0.349 81.5 18.5
10.0 163.616 54.368 1.95 19.5 33.7 46.8 0.389 81.1 18.9
11.0 61.875 142.255 1.565 13.3 42.15 44.6 0.4515 80.25 19.75
11.0 97.548 142.255 1.79 13.75 41.55 44.7 0.435 80.15 19.85
11.0 133.221 142.255 1.89 14.4 40.85 44.75 0.4185 80.0 20.0
11.0 168.894 142.255 2.065 14.45 40.9 44.6 0.4355 80.05 19.95
12.0 75.469 136.052 1.51 14.1 41.55 44.4 0.436 80.15 19.85
12.0 111.577 136.052 1.66 14.5 40.7 44.8 0.4205 79.9 20.1
12.0 147.685 136.052 1.92 14.8 40.85 44.4 0.4375 80.1 19.9
13.0 53.16 116.641 1.82 13.2 42.45 44.3 0.4515 80.15 19.85
13.0 88.918 116.641 1.95 13.5 41.9 44.65 0.458 79.9 20.1
13.0 124.68 116.641 2.175 14.4 41.05 44.55 0.4485 79.8 20.2
13.0 160.438 116.641 2.745 15.05 41.0 43.95 0.4345 79.95 20.05
14.0 67.982 103.706 1.675 14.05 41.95 43.95 0.458 80.1 19.9
14.0 104.26 103.706 2.23 14.8 41.6 43.6 0.447 80.1 19.9
14.0 140.54 103.706 2.5 15.5 41.1 43.45 0.44 80.0 20.0
14.0 176.818 103.706 2.58 15.65 40.75 43.65 0.441 80.0 20.0
15.0 85.773 89.449 1.81 14.8 41.1 44.15 0.382 80.15 19.85
15.0 121.711 89.449 2.035 15.3 41.1 43.6 0.4155 80.05 19.95
15.0 157.648 89.449 2.185 16.15 40.5 43.3 0.4115 80.05 19.95
16.0 65.691 76.185 1.82 13.9 42.9 43.2 0.473 80.2 19.8
16.0 101.63 76.185 2.075 14.1 42.5 43.4 0.469 80.1 19.9
16.0 137.564 76.185 2.33 14.8 42.0 43.25 0.4625 80.05 19.95
16.0 173.502 76.185 2.42 15.65 41.55 42.85 0.4575 80.05 19.95
17.0 81.689 60.352 1.905 11.7 44.05 44.25 0.478 80.15 19.85
17.0 117.621 60.352 2.15 12.1 43.25 44.6 0.4635 80.1 19.9
17.0 153.552 60.352 2.335 12.75 42.9 44.35 0.4605 80.1 19.9
17.0 183.495 60.352 2.25 13.7 41.7 44.5 0.445 80.25 19.75

File: axis_raman.txt
36.9582
39.4709
41.9807
44.4919
47.0004
49.5103
52.0174
54.5238
57.0296
59.5347
62.037
64.5408
67.0417
69.5441
72.0438
74.5427
77.041
79.5386
82.0355
84.5318
87.0253
89.5202
92.0124
94.5039
96.9947
99.4849
101.974
104.463
106.951
109.437
111.924
114.408
116.891
119.376
121.858
124.337
126.818
129.298
131.775
134.254
136.73
139.206
141.68
144.154
146.628
149.1
151.57
154.042
156.51
158.98
161.448
163.914
166.38
168.844
171.308
173.772
176.234
178.694
181.156
183.616
186.074
188.532
190.988
193.444
195.898
198.354
200.807
203.259
205.71
208.161
210.611
213.06
215.507
217.955
220.401
222.845
225.289
227.733
230.176
232.618
235.057
237.498
239.937
242.374
244.813
247.249
249.683
252.118
254.552
256.984
259.417
261.847
264.277
266.706
269.134
271.562
273.989
276.413
278.839
281.262
283.685
286.107
288.528
290.949
293.369
295.786
298.205
300.621
303.036
305.451
307.865
310.278
312.691
315.103
317.513
319.924
322.332
324.739
327.146
329.553
331.956
334.362
336.766
339.168
341.569
343.969
346.369
348.769
351.167
353.565
355.961
358.355
360.751
363.145
365.538
367.93
370.321
372.71
375.101
377.488
379.875
382.262
384.648
387.033
389.417
391.801
394.182
396.565
398.945
401.325
403.703
406.082
408.459
410.834
413.21
415.584
417.957
420.33
422.701
425.073
427.443
429.813
432.181
434.547
436.915
439.281
441.646
444.008
446.372
448.735
451.095
453.455
455.816
458.175
460.533
462.888
465.245
467.601
469.954
472.307
474.661
477.013
479.362
481.713
484.063
486.41
488.758
491.104
493.45
495.795
498.139
500.482
502.823
505.166
507.506
509.845
512.183
514.521
516.859
519.195
521.53
523.865
526.198
528.531
530.862
533.193
535.524
537.852
540.181
542.508
544.834
547.162
549.487
551.809
554.133
556.456
558.777
561.097
563.416
565.737
568.053
570.371
572.688
575.002
577.318
579.631
581.944
584.256
586.568
588.876
591.187
593.494
595.804
598.11
600.416
602.721
605.024
607.328
609.632
611.933
614.233
616.533
618.833
621.131
623.429
625.725
628.02
630.316
632.61
634.903
637.196
639.486
641.777
644.066
646.356
648.644
650.358

File: x_raman.txt
36.5942
39.1069
41.6167
44.1279
46.6364
49.1463
51.6534
54.1598
56.6656
59.1707
61.673
64.1768
66.6777
69.1801
71.6798
74.1787
76.677
79.1746
81.6715
84.1678
86.6613
89.1562
91.6484
94.1399
96.6307
99.1209
101.61
104.099
106.587
109.073
111.56
114.044
116.527
119.012
121.494
123.973
126.454
128.934
131.411
133.89
136.366
138.842
141.316
143.79
146.264
148.736
151.206
153.678
156.146
158.616
161.084
163.55
166.016
168.48
170.944
173.408
175.87
178.33
180.792
183.252
185.71
188.168
190.624
193.08
195.534
197.99
200.443
202.895
205.346
207.797
210.247
212.696
215.143
217.591
220.037
222.481
224.925
227.369
229.812
232.254
234.693
237.134
239.573
242.01
244.449
246.885
249.319
251.754
254.188
256.62
259.053
261.483
263.913
266.342
268.77
271.198
273.625
276.049
278.475
280.898
283.321
285.743
288.164
290.585
293.005
295.422
297.841
300.257
302.672
305.087
307.501
309.914
312.327
314.739
317.149
319.56
321.968
324.375
326.782
329.189
331.592
333.998
336.402
338.804
341.205
343.605
346.005
348.405
350.803
353.201
355.597
357.991
360.387
362.781
365.174
367.566
369.957
372.346
374.737
377.124
379.511
381.898
384.284
386.669
389.053
391.437
393.818
396.201
398.581
400.961
403.339
405.718
408.095
410.47
412.846
415.22
417.593
419.966
422.337
424.709
427.079
429.449
431.817
434.183
436.551
438.917
441.282
443.644
446.008
448.371
450.731
453.091
455.452
457.811
460.169
462.524
464.881
467.237
469.59
471.943
474.297
476.649
478.998
481.349
483.699
486.046
488.394
490.74
493.086
495.431
497.775
500.118
502.459
504.802
507.142
509.481
511.819
514.157
516.495
518.831
521.166
523.501
525.834
528.167
530.498
532.829
535.16
537.488
539.817
542.144
544.47
546.798
549.123
551.445
553.769
556.092
558.413
560.733
563.052
565.373
567.689
570.007
572.324
574.638
576.954
579.267
581.58
583.892
586.204
588.512
590.823
593.13
595.44
597.746
600.052
602.357
604.66
606.964
609.268
611.569
613.869
616.169
618.469
620.767
623.065
625.361
627.656
629.952
632.246
634.539
636.832
639.122
641.413
643.702
645.992
648.28
649.994